File: Versuche Semester VII/1. V44 Röntgenreflektometrie/python/data/diffus.UXD
; C:\DIFFDAT1\Praktikum\Schlueckg_Sander\diffus.raw(Diffrac Plus V1.01 file) converted by XCH V1.0
_FILEVERSION=2
_SITE='Deutschland'
_USER='Administrator'
_GONIOMETER_CODE=4885
; D8 Theta/Theta; Special
_SAMPLE_CHANGER_CODE=0
_ATTACHMENTS_CODE=0
_GONIOMETER_RADIUS=350
_FIXED_DIVSLIT=0.600000
_FIXED_SAMPLESLIT=0.000000
_FIXED_DETSLIT=11.66
_MONOCHROMATOR=0
; None
_THIN_FILM='N'
_BETA_FILTER='Y'
_FIXED_ANTISLIT=8.340000
_ANALYZER_CODE=0
; None
_DATEMEASURED='17-Oct-2022 11:46:04'
_WL_UNIT='A'
_WL1=1.540600
_WL2=1.544390
_WL3=1.392220
_WLRATIO=0.500000
_ANODE='Cu'
; (Data for Range number 1)
_DRIVE='THETA'
_STEPTIME=5.000660
_STEPSIZE=0.005000
_STEPMODE='C'
_START=0.000000
_THETA=0.000000
_2THETA=0.100000
_KHI=0.000000
_PHI=92.46
_X=2.008000
_Y=-0.600000
_Z=0.100000
_DIVERGENCE=0.000000
_ANTISCATTER=0.000000
_DETECTOR=5
_DETECTORSLIT='unkn'
_AUX1=0.000000
_AUX2=0.000000
_AUX3=0.000000
_TIMESTARTED=3.000000
_TEMP_RATE=-1.000000
_TEMP_DELAY=-1.000000
_KV=40
_MA=35
_RANGE_WL=1.540600
_3DPLANE=0
_GONIOMETER=0.097500
_PSDCHANNEL0=0
_2THETACOUNTS
   0.0000    480693
   0.0050    385952
   0.0100    320487
   0.0150    256381
   0.0200    207831
   0.0250    184242
   0.0300    162618
   0.0350    147072
   0.0400    139595
   0.0450    128110
   0.0500    122153
   0.0550    116800
   0.0600    113181
   0.0650    112846
   0.0700    113701
   0.0750    113174
   0.0800    112410
   0.0850    113270
   0.0900    112610
   0.0950    111364
   0.1000    109853
   0.1050    106179
   0.1100    101561
   0.1150     97291
   0.1200     93028
   0.1250     85710
   0.1300     78819
   0.1350     73435
   0.1400     69514
   0.1450     63868
   0.1500     56991
   0.1550     49847
   0.1600     43571
   0.1650     39239
   0.1700     36908
   0.1750     33779
   0.1800     31158
   0.1850     28380
   0.1900     25736
   0.1950     23432
   0.2000     20950
   0.2050     18952
   0.2100     16212
   0.2150     13706
   0.2200     11136
   0.2250      8813
   0.2300      6818
   0.2350      5204
   0.2400      4063
   0.2450      3272
   0.2500      2687
   0.2550      2375
   0.2600      2009
   0.2650      1736
   0.2700      1507
   0.2750      1304
   0.2800      1108
   0.2850       995
   0.2900       919
   0.2950       873
   0.3000       782
   0.3050       745
   0.3100       629
   0.3150       534
   0.3200       517
   0.3250       440
   0.3300       458
   0.3350       388
   0.3400       380
   0.3450       334
   0.3500       319
   0.3550       293
   0.3600       300
   0.3650       254
   0.3700       249
   0.3750       246
   0.3800       234
   0.3850       200
   0.3900       195
   0.3950       196
   0.4000       185
   0.4050       170
   0.4100       176
   0.4150       143
   0.4200       126
   0.4250       144
   0.4300       143
   0.4350       123
   0.4400       130
   0.4450       130
   0.4500       131
   0.4550       145
   0.4600       110
   0.4650       127
   0.4700       111
   0.4750        94
   0.4800        92
   0.4850        84
   0.4900        78
   0.4950        92
   0.5000        89
   0.5050        83
   0.5100        99
   0.5150        79
   0.5200        68
   0.5250        67
   0.5300        60
   0.5350        62
   0.5400        73
   0.5450        61
   0.5500        60
   0.5550        66
   0.5600        63
   0.5650        51
   0.5700        44
   0.5750        57
   0.5800        63
   0.5850        50
   0.5900        50
   0.5950        54
   0.6000        52
   0.6050        51
   0.6100        45
   0.6150        41
   0.6200        46
   0.6250        41
   0.6300        42
   0.6350        44
   0.6400        52
   0.6450        43
   0.6500        30
   0.6550        42
   0.6600        27
   0.6650        46
   0.6700        38
   0.6750        28
   0.6800        36
   0.6850        31
   0.6900        21
   0.6950        31
   0.7000        32
   0.7050        32
   0.7100        32
   0.7150        28
   0.7200        37
   0.7250        23
   0.7300        28
   0.7350        26
   0.7400        27
   0.7450        24
   0.7500        19
   0.7550        23
   0.7600        33
   0.7650        23
   0.7700        25
   0.7750        23
   0.7800        19
   0.7850        13
   0.7900        23
   0.7950        23
   0.8000        19
   0.8050        18
   0.8100        14
   0.8150        23
   0.8200        11
   0.8250        28
   0.8300        17
   0.8350        19
   0.8400        14
   0.8450        22
   0.8500        21
   0.8550        19
   0.8600        14
   0.8650        20
   0.8700        15
   0.8750        18
   0.8800        13
   0.8850        13
   0.8900        12
   0.8950        15
   0.9000        16
   0.9050        12
   0.9100        19
   0.9150        17
   0.9200        14
   0.9250        12
   0.9300        16
   0.9350        12
   0.9400        12
   0.9450        10
   0.9500        18
   0.9550        14
   0.9600        15
   0.9650        15
   0.9700        10
   0.9750        11
   0.9800        15
   0.9850         6
   0.9900        18
   0.9950        12
   1.0000         8
   1.0050        11
   1.0100        11
   1.0150        12
   1.0200         9
   1.0250         6
   1.0300         9
   1.0350         8
   1.0400         9
   1.0450        10
   1.0500         9
   1.0550         7
   1.0600         2
   1.0650         3
   1.0700         8
   1.0750        14
   1.0800         7
   1.0850         8
   1.0900        10
   1.0950        12
   1.1000         7
   1.1050         5
   1.1100         4
   1.1150         5
   1.1200         9
   1.1250         3
   1.1300         5
   1.1350         6
   1.1400         4
   1.1450         2
   1.1500         3
   1.1550         5
   1.1600         6
   1.1650         7
   1.1700         3
   1.1750         1
   1.1800         4
   1.1850         6
   1.1900         6
   1.1950         3
   1.2000         1
   1.2050         4
   1.2100         4
   1.2150         1
   1.2200         3
   1.2250         6
   1.2300         6
   1.2350         5
   1.2400         2
   1.2450         2
   1.2500         5
   1.2550         3
   1.2600         3
   1.2650         2
   1.2700         2
   1.2750         5
   1.2800         2
   1.2850         4
   1.2900         3
   1.2950         6
   1.3000         3
   1.3050         6
   1.3100         0
   1.3150         4
   1.3200         2
   1.3250         3
   1.3300         1
   1.3350         3
   1.3400         2
   1.3450         3
   1.3500         2
   1.3550         2
   1.3600         5
   1.3650         2
   1.3700         2
   1.3750         1
   1.3800         1
   1.3850         2
   1.3900         1
   1.3950         1
   1.4000         1
   1.4050         5
   1.4100         2
   1.4150         0
   1.4200         0
   1.4250         2
   1.4300         1
   1.4350         0
   1.4400         2
   1.4450         6
   1.4500         3
   1.4550         2
   1.4600         2
   1.4650         1
   1.4700         2
   1.4750         3
   1.4800         2
   1.4850         0
   1.4900         1
   1.4950         0
   1.5000         3
   1.5050         3
   1.5100         1
   1.5150         0
   1.5200         1
   1.5250         1
   1.5300         0
   1.5350         3
   1.5400         0
   1.5450         3
   1.5500         1
   1.5550         0
   1.5600         1
   1.5650         0
   1.5700         4
   1.5750         1
   1.5800         2
   1.5850         1
   1.5900         1
   1.5950         0
   1.6000         0
   1.6050         3
   1.6100         2
   1.6150         1
   1.6200         0
   1.6250         3
   1.6300         1
   1.6350         0
   1.6400         0
   1.6450         1
   1.6500         1
   1.6550         1
   1.6600         2
   1.6650         0
   1.6700         1
   1.6750         1
   1.6800         2
   1.6850         1
   1.6900         0
   1.6950         0
   1.7000         0
   1.7050         0
   1.7100         0
   1.7150         0
   1.7200         0
   1.7250         0
   1.7300         0
   1.7350         0
   1.7400         1
   1.7450         3
   1.7500         0
   1.7550         0
   1.7600         2
   1.7650         0
   1.7700         2
   1.7750         0
   1.7800         0
   1.7850         1
   1.7900         0
   1.7950         0
   1.8000         3
   1.8050         0
   1.8100         2
   1.8150         4
   1.8200         1
   1.8250         0
   1.8300         0
   1.8350         0
   1.8400         0
   1.8450         1
   1.8500         0
   1.8550         0
   1.8600         1
   1.8650         0
   1.8700         0
   1.8750         0
   1.8800         1
   1.8850         1
   1.8900         2
   1.8950         0
   1.9000         0
   1.9050         0
   1.9100         0
   1.9150         0
   1.9200         0
   1.9250         2
   1.9300         0
   1.9350         1
   1.9400         1
   1.9450         0
   1.9500         0
   1.9550         2
   1.9600         1
   1.9650         0
   1.9700         0
   1.9750         0
   1.9800         0
   1.9850         1
   1.9900         1
   1.9950         0
   2.0000         0
   2.0050         1
   2.0100         0
   2.0150         0
   2.0200         0
   2.0250         0
   2.0300         0
   2.0350         3
   2.0400         0
   2.0450         1
   2.0500         0
   2.0550         0
   2.0600         1
   2.0650         0
   2.0700         0
   2.0750         0
   2.0800         0
   2.0850         0
   2.0900         0
   2.0950         0
   2.1000         1
   2.1050         1
   2.1100         1
   2.1150         1
   2.1200         1
   2.1250         1
   2.1300         0
   2.1350         1
   2.1400         0
   2.1450         1
   2.1500         2
   2.1550         0
   2.1600         0
   2.1650         0
   2.1700         0
   2.1750         1
   2.1800         0
   2.1850         1
   2.1900         0
   2.1950         1
   2.2000         0
   2.2050         1
   2.2100         1
   2.2150         0
   2.2200         0
   2.2250         1
   2.2300         1
   2.2350         0
   2.2400         0
   2.2450         2
   2.2500         0
   2.2550         0
   2.2600         0
   2.2650         0
   2.2700         0
   2.2750         1
   2.2800         0
   2.2850         0
   2.2900         0
   2.2950         0
   2.3000         0
   2.3050         0
   2.3100         0
   2.3150         0
   2.3200         0
   2.3250         0
   2.3300         0
   2.3350         0
   2.3400         1
   2.3450         0
   2.3500         0
   2.3550         0
   2.3600         0
   2.3650         0
   2.3700         0
   2.3750         0
   2.3800         0
   2.3850         0
   2.3900         0
   2.3950         0
   2.4000         0
   2.4050         1
   2.4100         0
   2.4150         0
   2.4200         0
   2.4250         0
   2.4300         2
   2.4350         0
   2.4400         0
   2.4450         1
   2.4500         0
   2.4550         0
   2.4600         0
   2.4650         0
   2.4700         0
   2.4750         0
   2.4800         0
   2.4850         0
   2.4900         0
   2.4950         0
   2.5000         0