File: Versuche Semester VII/1. V44 Röntgenreflektometrie/python/data/reflektivitat.UXD
; C:\DIFFDAT1\Praktikum\Schlueckg_Sander\reflektivitat.raw(Diffrac Plus V1.01 file) converted by XCH V1.0
_FILEVERSION=2
_SAMPLE='0916-XW-120-M5-ag.raw'
_SITE='Deutschland'
_USER='Administrator'
_GONIOMETER_CODE=4885
; D8 Theta/Theta; Special
_SAMPLE_CHANGER_CODE=0
_ATTACHMENTS_CODE=0
_GONIOMETER_RADIUS=350
_FIXED_DIVSLIT=0.600000
_FIXED_SAMPLESLIT=0.000000
_FIXED_DETSLIT=11.66
_MONOCHROMATOR=0
; None
_THIN_FILM='N'
_BETA_FILTER='Y'
_FIXED_ANTISLIT=8.340000
_ANALYZER_CODE=0
; None
_DATEMEASURED='17-Oct-2022 10:58:07'
_WL_UNIT='A'
_WL1=1.540600
_WL2=1.544390
_WL3=1.392220
_WLRATIO=0.500000
_ANODE='Cu'
; (Data for Range number 1)
_DRIVE='THETA'
_STEPTIME=5.000660
_STEPSIZE=0.005000
_STEPMODE='C'
_START=0.000000
_THETA=0.000000
_2THETA=0.000000
_KHI=0.000000
_PHI=92.46
_X=2.008000
_Y=-0.600000
_Z=0.100000
_DIVERGENCE=0.000000
_ANTISCATTER=0.000000
_DETECTOR=5
_DETECTORSLIT='unkn'
_AUX1=0.000000
_AUX2=0.000000
_AUX3=0.000000
_TIMESTARTED=2.000000
_TEMP_RATE=-1.000000
_TEMP_DELAY=-1.000000
_KV=40
_MA=35
_RANGE_WL=1.540600
_3DPLANE=0
_GONIOMETER=-0.002600
_PSDCHANNEL0=0
_2THETACOUNTS
   0.0000   2221990
   0.0050   2434660
   0.0100   2625700
   0.0150   2765750
   0.0200   2768910
   0.0250   2527710
   0.0300   2093850
   0.0350   1667780
   0.0400   1345510
   0.0450   1144200
   0.0500   1026480
   0.0550    963263
   0.0600    940274
   0.0650    931750
   0.0700    924055
   0.0750    946080
   0.0800    968738
   0.0850    996135
   0.0900   1034200
   0.0950   1067770
   0.1000   1111220
   0.1050   1153870
   0.1100   1194520
   0.1150   1233470
   0.1200   1282750
   0.1250   1321540
   0.1300   1370430
   0.1350   1407220
   0.1400   1450130
   0.1450   1476710
   0.1500   1507970
   0.1550   1508640
   0.1600   1520640
   0.1650   1526600
   0.1700   1553170
   0.1750   1578310
   0.1800   1619010
   0.1850   1639720
   0.1900   1679640
   0.1950   1697410
   0.2000   1706770
   0.2050   1670040
   0.2100   1593010
   0.2150   1485010
   0.2200   1328450
   0.2250   1129710
   0.2300    909630
   0.2350    724901
   0.2400    560609
   0.2450    414173
   0.2500    315147
   0.2550    259056
   0.2600    224334
   0.2650    198448
   0.2700    171340
   0.2750    142270
   0.2800    114622
   0.2850     91903
   0.2900     77731
   0.2950     70390
   0.3000     68412
   0.3050     68490
   0.3100     65930
   0.3150     60053
   0.3200     52850
   0.3250     44118
   0.3300     37129
   0.3350     31921
   0.3400     30084
   0.3450     30254
   0.3500     30988
   0.3550     30901
   0.3600     29792
   0.3650     27077
   0.3700     23494
   0.3750     19734
   0.3800     17015
   0.3850     15485
   0.3900     15265
   0.3950     15526
   0.4000     16180
   0.4050     16469
   0.4100     15781
   0.4150     14245
   0.4200     12415
   0.4250     10514
   0.4300      9278
   0.4350      8643
   0.4400      8506
   0.4450      8900
   0.4500      9241
   0.4550      9502
   0.4600      9083
   0.4650      8092
   0.4700      7175
   0.4750      6299
   0.4800      5573
   0.4850      5235
   0.4900      5299
   0.4950      5392
   0.5000      5652
   0.5050      5745
   0.5100      5512
   0.5150      5145
   0.5200      4632
   0.5250      4053
   0.5300      3520
   0.5350      3428
   0.5400      3271
   0.5450      3434
   0.5500      3567
   0.5550      3578
   0.5600      3449
   0.5650      3267
   0.5700      3010
   0.5750      2737
   0.5800      2355
   0.5850      2201
   0.5900      2206
   0.5950      2133
   0.6000      2225
   0.6050      2283
   0.6100      2273
   0.6150      2215
   0.6200      2031
   0.6250      1830
   0.6300      1709
   0.6350      1492
   0.6400      1469
   0.6450      1485
   0.6500      1514
   0.6550      1606
   0.6600      1457
   0.6650      1386
   0.6700      1351
   0.6750      1222
   0.6800      1120
   0.6850      1019
   0.6900      1003
   0.6950      1082
   0.7000       994
   0.7050      1043
   0.7100      1050
   0.7150      1027
   0.7200       936
   0.7250       877
   0.7300       797
   0.7350       733
   0.7400       745
   0.7450       756
   0.7500       735
   0.7550       755
   0.7600       781
   0.7650       715
   0.7700       689
   0.7750       643
   0.7800       601
   0.7850       473
   0.7900       483
   0.7950       513
   0.8000       517
   0.8050       490
   0.8100       492
   0.8150       512
   0.8200       520
   0.8250       485
   0.8300       437
   0.8350       410
   0.8400       379
   0.8450       353
   0.8500       359
   0.8550       358
   0.8600       403
   0.8650       371
   0.8700       366
   0.8750       349
   0.8800       292
   0.8850       315
   0.8900       268
   0.8950       258
   0.9000       265
   0.9050       259
   0.9100       245
   0.9150       286
   0.9200       275
   0.9250       271
   0.9300       262
   0.9350       188
   0.9400       225
   0.9450       206
   0.9500       192
   0.9550       180
   0.9600       204
   0.9650       204
   0.9700       202
   0.9750       193
   0.9800       191
   0.9850       162
   0.9900       166
   0.9950       150
   1.0000       148
   1.0050       152
   1.0100       127
   1.0150       136
   1.0200       141
   1.0250       140
   1.0300       126
   1.0350       140
   1.0400       125
   1.0450       104
   1.0500       113
   1.0550        98
   1.0600       102
   1.0650       118
   1.0700       118
   1.0750       107
   1.0800       116
   1.0850       103
   1.0900        92
   1.0950        86
   1.1000        93
   1.1050        91
   1.1100        78
   1.1150        78
   1.1200        60
   1.1250        87
   1.1300        79
   1.1350        88
   1.1400        73
   1.1450        78
   1.1500        75
   1.1550        68
   1.1600        46
   1.1650        57
   1.1700        60
   1.1750        71
   1.1800        48
   1.1850        51
   1.1900        54
   1.1950        64
   1.2000        53
   1.2050        42
   1.2100        47
   1.2150        38
   1.2200        44
   1.2250        61
   1.2300        47
   1.2350        45
   1.2400        47
   1.2450        45
   1.2500        31
   1.2550        39
   1.2600        33
   1.2650        31
   1.2700        41
   1.2750        42
   1.2800        33
   1.2850        40
   1.2900        29
   1.2950        28
   1.3000        35
   1.3050        34
   1.3100        22
   1.3150        19
   1.3200        29
   1.3250        21
   1.3300        23
   1.3350        39
   1.3400        29
   1.3450        24
   1.3500        26
   1.3550        32
   1.3600        16
   1.3650        24
   1.3700        21
   1.3750        18
   1.3800        20
   1.3850        22
   1.3900        31
   1.3950        27
   1.4000        21
   1.4050        16
   1.4100        14
   1.4150        13
   1.4200        12
   1.4250        18
   1.4300        28
   1.4350        21
   1.4400        11
   1.4450        22
   1.4500         9
   1.4550        10
   1.4600        20
   1.4650        13
   1.4700        10
   1.4750        18
   1.4800        18
   1.4850        17
   1.4900        11
   1.4950        14
   1.5000        11
   1.5050        12
   1.5100        10
   1.5150        10
   1.5200         6
   1.5250        10
   1.5300         7
   1.5350         8
   1.5400         7
   1.5450        16
   1.5500        10
   1.5550        10
   1.5600         9
   1.5650         8
   1.5700         6
   1.5750        12
   1.5800         7
   1.5850         4
   1.5900        10
   1.5950        10
   1.6000        11
   1.6050        11
   1.6100        16
   1.6150         5
   1.6200        13
   1.6250         7
   1.6300         8
   1.6350         3
   1.6400         2
   1.6450         7
   1.6500         5
   1.6550         8
   1.6600         8
   1.6650         6
   1.6700         4
   1.6750         4
   1.6800         7
   1.6850         6
   1.6900         3
   1.6950         6
   1.7000         4
   1.7050         7
   1.7100         4
   1.7150         4
   1.7200         6
   1.7250         8
   1.7300         5
   1.7350         2
   1.7400         3
   1.7450         2
   1.7500         2
   1.7550         8
   1.7600         5
   1.7650         3
   1.7700         6
   1.7750         4
   1.7800         5
   1.7850         8
   1.7900         2
   1.7950         4
   1.8000         7
   1.8050         3
   1.8100         2
   1.8150         2
   1.8200         3
   1.8250         5
   1.8300         1
   1.8350         1
   1.8400         5
   1.8450         3
   1.8500         3
   1.8550         4
   1.8600         3
   1.8650         5
   1.8700         4
   1.8750         6
   1.8800         2
   1.8850         2
   1.8900         3
   1.8950         5
   1.9000         3
   1.9050         4
   1.9100         1
   1.9150         4
   1.9200         0
   1.9250         3
   1.9300         4
   1.9350         3
   1.9400         3
   1.9450         2
   1.9500         2
   1.9550         3
   1.9600         2
   1.9650         1
   1.9700         5
   1.9750         2
   1.9800         1
   1.9850         2
   1.9900         3
   1.9950         2
   2.0000         0
   2.0050         0
   2.0100         2
   2.0150         2
   2.0200         2
   2.0250         1
   2.0300         1
   2.0350         1
   2.0400         3
   2.0450         3
   2.0500         1
   2.0550         4
   2.0600         1
   2.0650         1
   2.0700         0
   2.0750         0
   2.0800         1
   2.0850         0
   2.0900         2
   2.0950         2
   2.1000         2
   2.1050         2
   2.1100         1
   2.1150         2
   2.1200         2
   2.1250         4
   2.1300         4
   2.1350         0
   2.1400         2
   2.1450         0
   2.1500         3
   2.1550         2
   2.1600         0
   2.1650         0
   2.1700         2
   2.1750         0
   2.1800         0
   2.1850         1
   2.1900         0
   2.1950         1
   2.2000         0
   2.2050         2
   2.2100         0
   2.2150         0
   2.2200         1
   2.2250         1
   2.2300         2
   2.2350         0
   2.2400         0
   2.2450         1
   2.2500         1
   2.2550         0
   2.2600         2
   2.2650         1
   2.2700         4
   2.2750         0
   2.2800         0
   2.2850         2
   2.2900         0
   2.2950         1
   2.3000         0
   2.3050         1
   2.3100         1
   2.3150         1
   2.3200         0
   2.3250         1
   2.3300         1
   2.3350         2
   2.3400         0
   2.3450         0
   2.3500         0
   2.3550         0
   2.3600         1
   2.3650         1
   2.3700         0
   2.3750         1
   2.3800         1
   2.3850         2
   2.3900         1
   2.3950         1
   2.4000         0
   2.4050         2
   2.4100         2
   2.4150         2
   2.4200         0
   2.4250         1
   2.4300         0
   2.4350         1
   2.4400         1
   2.4450         0
   2.4500         1
   2.4550         2
   2.4600         0
   2.4650         0
   2.4700         2
   2.4750         1
   2.4800         0
   2.4850         0
   2.4900         1
   2.4950         2
   2.5000         1